# E (eV) pdos(E) 
-25.210  0.263E-04
-25.200  0.301E-04
-25.190  0.344E-04
-25.180  0.394E-04
-25.170  0.451E-04
-25.160  0.515E-04
-25.150  0.588E-04
-25.140  0.671E-04
-25.130  0.765E-04
-25.120  0.872E-04
-25.110  0.993E-04
-25.100  0.113E-03
-25.090  0.128E-03
-25.080  0.146E-03
-25.070  0.166E-03
-25.060  0.188E-03
-25.050  0.214E-03
-25.040  0.242E-03
-25.030  0.274E-03
-25.020  0.310E-03
-25.010  0.350E-03
-25.000  0.396E-03
-24.990  0.448E-03
-24.980  0.505E-03
-24.970  0.570E-03
-24.960  0.642E-03
-24.950  0.723E-03
-24.940  0.814E-03
-24.930  0.916E-03
-24.920  0.103E-02
-24.910  0.116E-02
-24.900  0.130E-02
-24.890  0.146E-02
-24.880  0.163E-02
-24.870  0.183E-02
-24.860  0.204E-02
-24.850  0.230E-02
-24.840  0.256E-02
-24.830  0.286E-02
-24.820  0.320E-02
-24.810  0.356E-02
-24.800  0.398E-02
-24.790  0.444E-02
-24.780  0.494E-02
-24.770  0.550E-02
-24.760  0.611E-02
-24.750  0.679E-02
-24.740  0.754E-02
-24.730  0.837E-02
-24.720  0.929E-02
-24.710  0.103E-01
-24.700  0.114E-01
-24.690  0.126E-01
-24.680  0.140E-01
-24.670  0.154E-01
-24.660  0.170E-01
-24.650  0.188E-01
-24.640  0.208E-01
-24.630  0.229E-01
-24.620  0.252E-01
-24.610  0.278E-01
-24.600  0.306E-01
-24.590  0.336E-01
-24.580  0.369E-01
-24.570  0.406E-01
-24.560  0.444E-01
-24.550  0.488E-01
-24.540  0.534E-01
-24.530  0.586E-01
-24.520  0.640E-01
-24.510  0.700E-01
-24.500  0.766E-01
-24.490  0.836E-01
-24.480  0.913E-01
-24.470  0.996E-01
-24.460  0.109E+00
-24.450  0.118E+00
-24.440  0.129E+00
-24.430  0.140E+00
-24.420  0.152E+00
-24.410  0.165E+00
-24.400  0.179E+00
-24.390  0.195E+00
-24.380  0.211E+00
-24.370  0.228E+00
-24.360  0.248E+00
-24.350  0.268E+00
-24.340  0.290E+00
-24.330  0.313E+00
-24.320  0.338E+00
-24.310  0.364E+00
-24.300  0.394E+00
-24.290  0.424E+00
-24.280  0.456E+00
-24.270  0.492E+00
-24.260  0.528E+00
-24.250  0.568E+00
-24.240  0.610E+00
-24.230  0.654E+00
-24.220  0.702E+00
-24.210  0.753E+00
-24.200  0.806E+00
-24.190  0.863E+00
-24.180  0.923E+00
-24.170  0.987E+00
-24.160  0.105E+01
-24.150  0.113E+01
-24.140  0.120E+01
-24.130  0.128E+01
-24.120  0.137E+01
-24.110  0.145E+01
-24.100  0.155E+01
-24.090  0.164E+01
-24.080  0.175E+01
-24.070  0.186E+01
-24.060  0.197E+01
-24.050  0.208E+01
-24.040  0.222E+01
-24.030  0.234E+01
-24.020  0.248E+01
-24.010  0.262E+01
-24.000  0.278E+01
-23.990  0.292E+01
-23.980  0.309E+01
-23.970  0.326E+01
-23.960  0.344E+01
-23.950  0.362E+01
-23.940  0.381E+01
-23.930  0.401E+01
-23.920  0.422E+01
-23.910  0.442E+01
-23.900  0.465E+01
-23.890  0.488E+01
-23.880  0.512E+01
-23.870  0.536E+01
-23.860  0.561E+01
-23.850  0.587E+01
-23.840  0.614E+01
-23.830  0.642E+01
-23.820  0.670E+01
-23.810  0.699E+01
-23.800  0.729E+01
-23.790  0.760E+01
-23.780  0.791E+01
-23.770  0.823E+01
-23.760  0.856E+01
-23.750  0.890E+01
-23.740  0.924E+01
-23.730  0.959E+01
-23.720  0.995E+01
-23.710  0.103E+02
-23.700  0.107E+02
-23.690  0.111E+02
-23.680  0.114E+02
-23.670  0.118E+02
-23.660  0.122E+02
-23.650  0.126E+02
-23.640  0.130E+02
-23.630  0.134E+02
-23.620  0.138E+02
-23.610  0.142E+02
-23.600  0.146E+02
-23.590  0.150E+02
-23.580  0.154E+02
-23.570  0.158E+02
-23.560  0.162E+02
-23.550  0.167E+02
-23.540  0.171E+02
-23.530  0.175E+02
-23.520  0.179E+02
-23.510  0.183E+02
-23.500  0.187E+02
-23.490  0.190E+02
-23.480  0.194E+02
-23.470  0.198E+02
-23.460  0.202E+02
-23.450  0.206E+02
-23.440  0.208E+02
-23.430  0.212E+02
-23.420  0.216E+02
-23.410  0.218E+02
-23.400  0.222E+02
-23.390  0.226E+02
-23.380  0.228E+02
-23.370  0.230E+02
-23.360  0.234E+02
-23.350  0.236E+02
-23.340  0.238E+02
-23.330  0.240E+02
-23.320  0.242E+02
-23.310  0.244E+02
-23.300  0.246E+02
-23.290  0.248E+02
-23.280  0.248E+02
-23.270  0.250E+02
-23.260  0.250E+02
-23.250  0.252E+02
-23.240  0.252E+02
-23.230  0.252E+02
-23.220  0.252E+02
-23.210  0.252E+02
-23.200  0.252E+02
-23.190  0.252E+02
-23.180  0.250E+02
-23.170  0.250E+02
-23.160  0.248E+02
-23.150  0.248E+02
-23.140  0.246E+02
-23.130  0.244E+02
-23.120  0.242E+02
-23.110  0.240E+02
-23.100  0.238E+02
-23.090  0.236E+02
-23.080  0.234E+02
-23.070  0.230E+02
-23.060  0.228E+02
-23.050  0.224E+02
-23.040  0.220E+02
-23.030  0.218E+02
-23.020  0.214E+02
-23.010  0.210E+02
-23.000  0.206E+02
-22.990  0.202E+02
-22.980  0.198E+02
-22.970  0.193E+02
-22.960  0.189E+02
-22.950  0.185E+02
-22.940  0.180E+02
-22.930  0.175E+02
-22.920  0.170E+02
-22.910  0.165E+02
-22.900  0.161E+02
-22.890  0.156E+02
-22.880  0.151E+02
-22.870  0.146E+02
-22.860  0.140E+02
-22.850  0.135E+02
-22.840  0.130E+02
-22.830  0.125E+02
-22.820  0.120E+02
-22.810  0.115E+02
-22.800  0.110E+02
-22.790  0.104E+02
-22.780  0.995E+01
-22.770  0.944E+01
-22.760  0.895E+01
-22.750  0.846E+01
-22.740  0.798E+01
-22.730  0.750E+01
-22.720  0.703E+01
-22.710  0.656E+01
-22.700  0.611E+01
-22.690  0.567E+01
-22.680  0.523E+01
-22.670  0.481E+01
-22.660  0.439E+01
-22.650  0.399E+01
-22.640  0.360E+01
-22.630  0.322E+01
-22.620  0.284E+01
-22.610  0.249E+01
-22.600  0.214E+01
-22.590  0.181E+01
-22.580  0.149E+01
-22.570  0.118E+01
-22.560  0.886E+00
-22.550  0.604E+00
-22.540  0.334E+00
-22.530  0.769E-01
-22.520 -0.167E+00
-22.510 -0.398E+00
-22.500 -0.617E+00
-22.490 -0.824E+00
-22.480 -0.102E+01
-22.470 -0.120E+01
-22.460 -0.137E+01
-22.450 -0.153E+01
-22.440 -0.167E+01
-22.430 -0.181E+01
-22.420 -0.193E+01
-22.410 -0.204E+01
-22.400 -0.215E+01
-22.390 -0.224E+01
-22.380 -0.232E+01
-22.370 -0.240E+01
-22.360 -0.246E+01
-22.350 -0.252E+01
-22.340 -0.256E+01
-22.330 -0.260E+01
-22.320 -0.264E+01
-22.310 -0.266E+01
-22.300 -0.268E+01
-22.290 -0.268E+01
-22.280 -0.270E+01
-22.270 -0.268E+01
-22.260 -0.268E+01
-22.250 -0.266E+01
-22.240 -0.264E+01
-22.230 -0.262E+01
-22.220 -0.260E+01
-22.210 -0.256E+01
-22.200 -0.254E+01
-22.190 -0.250E+01
-22.180 -0.246E+01
-22.170 -0.240E+01
-22.160 -0.236E+01
-22.150 -0.232E+01
-22.140 -0.226E+01
-22.130 -0.220E+01
-22.120 -0.216E+01
-22.110 -0.210E+01
-22.100 -0.204E+01
-22.090 -0.199E+01
-22.080 -0.193E+01
-22.070 -0.187E+01
-22.060 -0.181E+01
-22.050 -0.175E+01
-22.040 -0.170E+01
-22.030 -0.164E+01
-22.020 -0.158E+01
-22.010 -0.153E+01
-22.000 -0.147E+01
-21.990 -0.141E+01
-21.980 -0.136E+01
-21.970 -0.130E+01
-21.960 -0.125E+01
-21.950 -0.120E+01
-21.940 -0.115E+01
-21.930 -0.110E+01
-21.920 -0.105E+01
-21.910 -0.100E+01
-21.900 -0.958E+00
-21.890 -0.913E+00
-21.880 -0.870E+00
-21.870 -0.828E+00
-21.860 -0.788E+00
-21.850 -0.748E+00
-21.840 -0.710E+00
-21.830 -0.674E+00
-21.820 -0.639E+00
-21.810 -0.605E+00
-21.800 -0.572E+00
-21.790 -0.542E+00
-21.780 -0.512E+00
-21.770 -0.483E+00
-21.760 -0.456E+00
-21.750 -0.430E+00
-21.740 -0.404E+00
-21.730 -0.380E+00
-21.720 -0.358E+00
-21.710 -0.336E+00
-21.700 -0.316E+00
-21.690 -0.296E+00
-21.680 -0.278E+00
-21.670 -0.260E+00
-21.660 -0.244E+00
-21.650 -0.228E+00
-21.640 -0.213E+00
-21.630 -0.199E+00
-21.620 -0.186E+00
-21.610 -0.173E+00
-21.600 -0.161E+00
-21.590 -0.150E+00
-21.580 -0.140E+00
-21.570 -0.130E+00
-21.560 -0.121E+00
-21.550 -0.112E+00
-21.540 -0.104E+00
-21.530 -0.965E-01
-21.520 -0.894E-01
-21.510 -0.828E-01
-21.500 -0.766E-01
-21.490 -0.708E-01
-21.480 -0.654E-01
-21.470 -0.604E-01
-21.460 -0.557E-01
-21.450 -0.514E-01
-21.440 -0.473E-01
-21.430 -0.436E-01
-21.420 -0.400E-01
-21.410 -0.368E-01
-21.400 -0.338E-01
-21.390 -0.310E-01
-21.380 -0.284E-01
-21.370 -0.261E-01
-21.360 -0.239E-01
-21.350 -0.218E-01
-21.340 -0.200E-01
-21.330 -0.183E-01
-21.320 -0.167E-01
-21.310 -0.152E-01
-21.300 -0.139E-01
-21.290 -0.127E-01
-21.280 -0.115E-01
-21.270 -0.105E-01
-21.260 -0.956E-02
-21.250 -0.869E-02
-21.240 -0.790E-02
-21.230 -0.716E-02
-21.220 -0.650E-02
-21.210 -0.589E-02
-21.200 -0.534E-02
-21.190 -0.483E-02
-21.180 -0.437E-02
-21.170 -0.395E-02
-21.160 -0.356E-02
-21.150 -0.322E-02
-21.140 -0.290E-02
-21.130 -0.262E-02
-21.120 -0.236E-02
-21.110 -0.212E-02
-21.100 -0.191E-02
-21.090 -0.172E-02
-21.080 -0.154E-02
-21.070 -0.138E-02
-21.060 -0.124E-02
-21.050 -0.111E-02
-21.040 -0.997E-03
-21.030 -0.892E-03
-21.020 -0.798E-03
-21.010 -0.714E-03
-21.000 -0.638E-03
-20.990 -0.570E-03
-20.980 -0.508E-03
-20.970 -0.453E-03
-20.960 -0.404E-03
-20.950 -0.360E-03
-20.940 -0.320E-03
-20.930 -0.284E-03
-20.920 -0.252E-03
-20.910 -0.224E-03
-20.900 -0.199E-03
-20.890 -0.176E-03
-20.880 -0.156E-03
-20.870 -0.138E-03
-20.860 -0.122E-03
-20.850 -0.108E-03
-20.840 -0.956E-04
-20.830 -0.844E-04
-20.820 -0.745E-04
-20.810 -0.657E-04
-20.800 -0.578E-04
-20.790 -0.509E-04
-20.780 -0.448E-04
-20.770 -0.394E-04
-20.760 -0.346E-04
-20.750 -0.304E-04
-20.740 -0.266E-04
-20.730 -0.234E-04
-20.720 -0.204E-04
-20.710 -0.179E-04
-20.700 -0.157E-04
-20.690 -0.137E-04
-20.680 -0.120E-04
-20.670 -0.104E-04
-20.660 -0.906E-05
-20.650 -0.789E-05
-20.640 -0.687E-05
-20.630 -0.598E-05
-20.620 -0.520E-05
-20.610 -0.452E-05
-20.600 -0.392E-05
-20.590 -0.340E-05
-20.580 -0.294E-05
-20.570 -0.252E-05
-20.560 -0.214E-05
-20.550 -0.184E-05
-20.540 -0.157E-05
-20.530 -0.132E-05
-20.520 -0.112E-05
-20.510 -0.957E-06
-20.500 -0.822E-06
-20.490 -0.704E-06
-20.480 -0.604E-06
-20.470 -0.517E-06
-20.460 -0.441E-06
-20.450 -0.374E-06
-20.440 -0.314E-06
-20.430 -0.256E-06
-20.420 -0.187E-06
-20.410 -0.152E-06
-20.400 -0.126E-06
-20.390 -0.103E-06
-20.380 -0.807E-07
-20.370 -0.575E-07
-20.360 -0.340E-07
-20.350 -0.186E-07
-20.340 -0.600E-08
-20.330  0.000E+00
-20.320  0.000E+00
-20.310  0.000E+00
-20.300  0.000E+00
-20.290  0.000E+00
-20.280  0.000E+00
-20.270  0.000E+00
-20.260  0.000E+00
-20.250  0.000E+00
-20.240  0.000E+00
-20.230  0.000E+00
-20.220  0.000E+00
-20.210  0.000E+00
-20.200  0.000E+00
-20.190  0.000E+00
-20.180  0.000E+00
-20.170  0.000E+00
-20.160  0.000E+00
-20.150  0.000E+00
-20.140  0.000E+00
-20.130  0.000E+00
-20.120  0.000E+00
-20.110  0.000E+00
-20.100  0.000E+00
-20.090  0.000E+00
-20.080  0.000E+00
-20.070  0.000E+00
-20.060  0.000E+00
-20.050  0.000E+00
-20.040  0.000E+00
-20.030  0.000E+00
-20.020  0.000E+00
-20.010  0.000E+00
-20.000  0.000E+00
-19.990  0.000E+00
-19.980  0.000E+00
-19.970  0.000E+00
-19.960  0.000E+00
-19.950  0.000E+00
-19.940  0.000E+00
-19.930  0.000E+00
-19.920  0.000E+00
-19.910  0.000E+00
-19.900  0.000E+00
-19.890  0.000E+00
-19.880  0.000E+00
-19.870  0.000E+00
-19.860  0.000E+00
-19.850  0.000E+00
-19.840  0.000E+00
-19.830  0.000E+00
-19.820  0.000E+00
-19.810  0.000E+00
-19.800  0.000E+00
-19.790  0.000E+00
-19.780  0.000E+00
-19.770  0.000E+00
-19.760  0.000E+00
-19.750  0.000E+00
-19.740  0.000E+00
-19.730  0.000E+00
-19.720  0.000E+00
-19.710  0.000E+00
-19.700  0.000E+00
-19.690  0.000E+00
-19.680  0.000E+00
-19.670  0.000E+00
-19.660  0.000E+00
-19.650  0.000E+00
-19.640  0.000E+00
-19.630  0.000E+00
-19.620  0.000E+00
-19.610  0.000E+00
-19.600  0.000E+00
-19.590  0.000E+00
-19.580  0.000E+00
-19.570  0.000E+00
-19.560  0.000E+00
-19.550  0.000E+00
-19.540  0.000E+00
-19.530  0.000E+00
-19.520  0.000E+00
-19.510  0.000E+00
-19.500  0.000E+00
-19.490  0.000E+00
-19.480  0.000E+00
-19.470  0.000E+00
-19.460  0.000E+00
-19.450  0.000E+00
-19.440  0.000E+00
-19.430  0.000E+00
-19.420  0.000E+00
-19.410  0.000E+00
-19.400  0.000E+00
-19.390  0.000E+00
-19.380  0.000E+00
-19.370  0.000E+00
-19.360  0.000E+00
-19.350  0.000E+00
-19.340  0.000E+00
-19.330  0.000E+00
-19.320  0.000E+00
-19.310  0.000E+00
-19.300  0.000E+00
-19.290  0.000E+00
-19.280  0.000E+00
-19.270  0.000E+00
-19.260  0.000E+00
-19.250  0.000E+00
-19.240  0.000E+00
-19.230  0.000E+00
-19.220  0.000E+00
-19.210  0.000E+00
-19.200  0.000E+00
-19.190  0.000E+00
-19.180  0.000E+00
-19.170  0.000E+00
-19.160  0.000E+00
-19.150  0.000E+00
-19.140  0.000E+00
-19.130  0.000E+00
-19.120  0.000E+00
-19.110  0.000E+00
-19.100  0.000E+00
-19.090  0.000E+00
-19.080  0.000E+00
-19.070  0.000E+00
-19.060  0.000E+00
-19.050  0.000E+00
-19.040  0.000E+00
-19.030  0.000E+00
-19.020  0.000E+00
-19.010  0.000E+00
-19.000  0.000E+00
-18.990  0.000E+00
-18.980  0.000E+00
-18.970  0.000E+00
-18.960  0.000E+00
-18.950  0.000E+00
-18.940  0.000E+00
-18.930  0.000E+00
-18.920  0.000E+00
-18.910  0.000E+00
-18.900  0.000E+00
-18.890  0.000E+00
-18.880  0.000E+00
-18.870  0.000E+00
-18.860  0.000E+00
-18.850  0.000E+00
-18.840  0.000E+00
-18.830  0.000E+00
-18.820  0.000E+00
-18.810  0.000E+00
-18.800  0.000E+00
-18.790  0.000E+00
-18.780  0.000E+00
-18.770  0.000E+00
-18.760  0.000E+00
-18.750  0.000E+00
-18.740  0.000E+00
-18.730  0.000E+00
-18.720  0.000E+00
-18.710  0.000E+00
-18.700  0.000E+00
-18.690  0.000E+00
-18.680  0.000E+00
-18.670  0.000E+00
-18.660  0.000E+00
-18.650  0.000E+00
-18.640  0.000E+00
-18.630  0.000E+00
-18.620  0.000E+00
-18.610  0.000E+00
-18.600  0.000E+00
-18.590  0.000E+00
-18.580  0.000E+00
-18.570  0.000E+00
-18.560  0.000E+00
-18.550  0.000E+00
-18.540  0.000E+00
-18.530  0.000E+00
-18.520  0.000E+00
-18.510  0.000E+00
-18.500  0.000E+00
-18.490  0.000E+00
-18.480  0.000E+00
-18.470  0.000E+00
-18.460  0.000E+00
-18.450  0.000E+00
-18.440  0.000E+00
-18.430  0.000E+00
-18.420  0.000E+00
-18.410  0.000E+00
-18.400  0.000E+00
-18.390  0.000E+00
-18.380  0.000E+00
-18.370  0.000E+00
-18.360  0.000E+00
-18.350  0.000E+00
-18.340  0.000E+00
-18.330  0.000E+00
-18.320  0.000E+00
-18.310  0.000E+00
-18.300  0.000E+00
-18.290  0.000E+00
-18.280  0.000E+00
-18.270  0.000E+00
-18.260  0.000E+00
-18.250  0.000E+00
-18.240  0.000E+00
-18.230  0.000E+00
-18.220  0.000E+00
-18.210  0.000E+00
-18.200  0.000E+00
-18.190  0.000E+00
-18.180  0.000E+00
-18.170  0.000E+00
-18.160  0.000E+00
-18.150  0.000E+00
-18.140  0.000E+00
-18.130  0.000E+00
-18.120  0.000E+00
-18.110  0.000E+00
-18.100  0.000E+00
-18.090  0.000E+00
-18.080  0.000E+00
-18.070  0.000E+00
-18.060  0.000E+00
-18.050  0.000E+00
-18.040  0.000E+00
-18.030  0.000E+00
-18.020  0.000E+00
-18.010  0.000E+00
-18.000  0.000E+00
-17.990  0.000E+00
-17.980  0.000E+00
-17.970  0.000E+00
-17.960  0.000E+00
-17.950  0.000E+00
-17.940  0.000E+00
-17.930  0.000E+00
-17.920  0.000E+00
-17.910  0.000E+00
-17.900  0.000E+00
-17.890  0.000E+00
-17.880  0.000E+00
-17.870  0.000E+00
-17.860  0.000E+00
-17.850  0.000E+00
-17.840  0.000E+00
-17.830  0.000E+00
-17.820  0.000E+00
-17.810  0.000E+00
-17.800  0.000E+00
-17.790  0.000E+00
-17.780  0.000E+00
-17.770  0.000E+00
-17.760  0.000E+00
-17.750  0.000E+00
-17.740  0.000E+00
-17.730  0.000E+00
-17.720  0.000E+00
-17.710  0.000E+00
-17.700  0.000E+00
-17.690  0.000E+00
-17.680  0.000E+00
-17.670  0.000E+00
-17.660  0.000E+00
-17.650  0.000E+00
-17.640  0.000E+00
-17.630  0.000E+00
-17.620  0.000E+00
-17.610  0.000E+00
-17.600  0.000E+00
-17.590  0.000E+00
-17.580  0.000E+00
-17.570  0.000E+00
-17.560  0.000E+00
-17.550  0.000E+00
-17.540  0.000E+00
-17.530  0.000E+00
-17.520  0.000E+00
-17.510  0.000E+00
-17.500  0.000E+00
-17.490  0.000E+00
-17.480  0.000E+00
-17.470  0.000E+00
-17.460  0.000E+00
-17.450  0.000E+00
-17.440  0.000E+00
-17.430  0.000E+00
-17.420  0.000E+00
-17.410  0.000E+00
-17.400  0.000E+00
-17.390  0.000E+00
-17.380  0.000E+00
-17.370  0.000E+00
-17.360  0.000E+00
-17.350  0.000E+00
-17.340  0.000E+00
-17.330  0.000E+00
-17.320  0.000E+00
-17.310  0.000E+00
-17.300  0.000E+00
-17.290  0.000E+00
-17.280  0.000E+00
-17.270  0.000E+00
-17.260  0.000E+00
-17.250  0.000E+00
-17.240  0.000E+00
-17.230  0.000E+00
-17.220  0.000E+00
-17.210  0.000E+00
-17.200  0.000E+00
-17.190  0.000E+00
-17.180  0.000E+00
-17.170  0.000E+00
-17.160  0.000E+00
-17.150  0.000E+00
-17.140  0.000E+00
-17.130  0.000E+00
-17.120  0.000E+00
-17.110  0.000E+00
-17.100  0.000E+00
-17.090  0.000E+00
-17.080  0.000E+00
-17.070  0.000E+00
-17.060  0.000E+00
-17.050  0.000E+00
-17.040  0.000E+00
-17.030  0.000E+00
-17.020  0.000E+00
-17.010  0.000E+00
-17.000  0.000E+00
-16.990  0.000E+00
-16.980  0.000E+00
-16.970  0.000E+00
-16.960  0.000E+00
-16.950  0.000E+00
-16.940  0.000E+00
-16.930  0.000E+00
-16.920  0.000E+00
-16.910  0.000E+00
-16.900  0.000E+00
-16.890  0.000E+00
-16.880  0.000E+00
-16.870  0.000E+00
-16.860  0.000E+00
-16.850  0.000E+00
-16.840  0.000E+00
-16.830  0.000E+00
-16.820  0.000E+00
-16.810  0.000E+00
-16.800  0.000E+00
-16.790  0.000E+00
-16.780  0.000E+00
-16.770  0.000E+00
-16.760  0.000E+00
-16.750  0.000E+00
-16.740  0.000E+00
-16.730  0.000E+00
-16.720  0.000E+00
-16.710  0.000E+00
-16.700  0.000E+00
-16.690  0.000E+00
-16.680  0.000E+00
-16.670  0.000E+00
-16.660  0.000E+00
-16.650  0.000E+00
-16.640  0.000E+00
-16.630  0.000E+00
-16.620  0.000E+00
-16.610  0.000E+00
-16.600  0.000E+00
-16.590  0.000E+00
-16.580  0.000E+00
-16.570  0.000E+00
-16.560  0.000E+00
-16.550  0.000E+00
-16.540  0.000E+00
-16.530  0.000E+00
-16.520  0.000E+00
-16.510  0.000E+00
-16.500  0.000E+00
-16.490  0.000E+00
-16.480  0.000E+00
-16.470  0.000E+00
-16.460  0.000E+00
-16.450  0.000E+00
-16.440  0.000E+00
-16.430  0.000E+00
-16.420  0.000E+00
-16.410  0.000E+00
-16.400  0.000E+00
-16.390  0.000E+00
-16.380  0.000E+00
-16.370  0.000E+00
-16.360  0.000E+00
-16.350  0.000E+00
-16.340  0.000E+00
-16.330  0.000E+00
-16.320  0.000E+00
-16.310  0.000E+00
-16.300  0.000E+00
-16.290  0.000E+00
-16.280  0.000E+00
-16.270  0.000E+00
-16.260  0.000E+00
-16.250  0.000E+00
-16.240  0.000E+00
-16.230  0.000E+00
-16.220  0.000E+00
-16.210  0.000E+00
-16.200  0.000E+00
-16.190  0.000E+00
-16.180  0.000E+00
-16.170  0.000E+00
-16.160  0.000E+00
-16.150  0.000E+00
-16.140  0.000E+00
-16.130  0.000E+00
-16.120  0.000E+00
-16.110  0.000E+00
-16.100  0.000E+00
-16.090  0.000E+00
-16.080  0.000E+00
-16.070  0.000E+00
-16.060  0.000E+00
-16.050  0.000E+00
-16.040  0.000E+00
-16.030  0.000E+00
-16.020  0.000E+00
-16.010  0.000E+00
-16.000  0.000E+00
-15.990  0.000E+00
-15.980  0.000E+00
-15.970  0.000E+00
-15.960  0.000E+00
-15.950  0.000E+00
-15.940  0.000E+00
-15.930  0.000E+00
-15.920  0.000E+00
-15.910  0.000E+00
-15.900  0.000E+00
-15.890  0.000E+00
-15.880  0.000E+00
-15.870  0.000E+00
-15.860  0.000E+00
-15.850  0.000E+00
-15.840  0.000E+00
-15.830  0.000E+00
-15.820  0.000E+00
-15.810  0.000E+00
-15.800  0.000E+00
-15.790  0.000E+00
-15.780  0.000E+00
-15.770  0.000E+00
-15.760  0.000E+00
-15.750  0.000E+00
-15.740  0.000E+00
-15.730  0.000E+00
-15.720  0.000E+00
-15.710  0.000E+00
-15.700  0.000E+00
-15.690  0.000E+00
-15.680  0.000E+00
-15.670  0.000E+00
-15.660  0.000E+00
-15.650  0.000E+00
-15.640  0.000E+00
-15.630  0.000E+00
-15.620  0.000E+00
-15.610  0.000E+00
-15.600  0.000E+00
-15.590  0.000E+00
-15.580  0.000E+00
-15.570  0.000E+00
-15.560  0.000E+00
-15.550  0.000E+00
-15.540  0.000E+00
-15.530  0.000E+00
-15.520  0.000E+00
-15.510  0.000E+00
-15.500  0.000E+00
-15.490  0.000E+00
-15.480  0.000E+00
-15.470  0.000E+00
-15.460  0.000E+00
-15.450  0.000E+00
-15.440  0.000E+00
-15.430  0.000E+00
-15.420  0.000E+00
-15.410  0.000E+00
-15.400  0.000E+00
-15.390  0.000E+00
-15.380  0.000E+00
-15.370  0.000E+00
-15.360  0.000E+00
-15.350  0.000E+00
-15.340  0.000E+00
-15.330  0.000E+00
-15.320  0.000E+00
-15.310  0.000E+00
-15.300  0.000E+00
-15.290  0.000E+00
-15.280  0.000E+00
-15.270  0.000E+00
-15.260  0.000E+00
-15.250  0.000E+00
-15.240  0.000E+00
-15.230  0.000E+00
-15.220  0.000E+00
-15.210  0.000E+00
-15.200  0.000E+00
-15.190  0.000E+00
-15.180  0.000E+00
-15.170  0.000E+00
-15.160  0.000E+00
-15.150  0.000E+00
-15.140  0.000E+00
-15.130  0.000E+00
-15.120  0.000E+00
-15.110  0.000E+00
-15.100  0.000E+00
-15.090  0.000E+00
-15.080  0.000E+00
-15.070  0.000E+00
-15.060  0.000E+00
-15.050  0.000E+00
-15.040  0.000E+00
-15.030  0.000E+00
-15.020  0.000E+00
-15.010  0.000E+00
-15.000  0.000E+00
-14.990  0.000E+00
-14.980  0.000E+00
-14.970  0.000E+00
-14.960  0.000E+00
-14.950  0.000E+00
-14.940  0.000E+00
-14.930  0.000E+00
-14.920  0.000E+00
-14.910  0.000E+00
-14.900  0.000E+00
-14.890  0.000E+00
-14.880  0.000E+00
-14.870  0.000E+00
-14.860  0.000E+00
-14.850  0.000E+00
-14.840  0.000E+00
-14.830  0.000E+00
-14.820  0.000E+00
-14.810  0.000E+00
-14.800  0.000E+00
-14.790  0.000E+00
-14.780  0.000E+00
-14.770  0.000E+00
-14.760  0.000E+00
-14.750  0.000E+00
-14.740  0.000E+00
-14.730  0.000E+00
-14.720  0.000E+00
-14.710  0.000E+00
-14.700  0.000E+00
-14.690  0.000E+00
-14.680  0.000E+00
-14.670  0.000E+00
-14.660  0.000E+00
-14.650  0.000E+00
-14.640  0.000E+00
-14.630  0.000E+00
-14.620  0.000E+00
-14.610  0.000E+00
-14.600  0.000E+00
-14.590  0.000E+00
-14.580  0.000E+00
-14.570  0.000E+00
-14.560  0.000E+00
-14.550  0.000E+00
-14.540  0.000E+00
-14.530  0.000E+00
-14.520  0.000E+00
-14.510  0.000E+00
-14.500  0.000E+00
-14.490  0.000E+00
-14.480  0.000E+00
-14.470  0.000E+00
-14.460  0.000E+00
-14.450  0.000E+00
-14.440  0.000E+00
-14.430  0.000E+00
-14.420  0.000E+00
-14.410  0.000E+00
-14.400  0.000E+00
-14.390  0.000E+00
-14.380  0.000E+00
-14.370  0.000E+00
-14.360  0.000E+00
-14.350  0.000E+00
-14.340  0.000E+00
-14.330  0.000E+00
-14.320  0.000E+00
-14.310  0.000E+00
-14.300  0.000E+00
-14.290  0.000E+00
-14.280  0.000E+00
-14.270  0.000E+00
-14.260  0.000E+00
-14.250  0.000E+00
-14.240  0.000E+00
-14.230  0.000E+00
-14.220  0.000E+00
-14.210  0.000E+00
-14.200  0.000E+00
-14.190  0.000E+00
-14.180  0.000E+00
-14.170  0.000E+00
-14.160  0.000E+00
-14.150  0.000E+00
-14.140  0.000E+00
-14.130  0.000E+00
-14.120  0.000E+00
-14.110  0.000E+00
-14.100  0.240E-18
-14.090  0.161E-17
-14.080  0.198E-17
-14.070  0.244E-17
-14.060  0.432E-17
-14.050  0.532E-17
-14.040  0.802E-17
-14.030  0.984E-17
-14.020  0.121E-16
-14.010  0.148E-16
-14.000  0.209E-16
-13.990  0.256E-16
-13.980  0.314E-16
-13.970  0.398E-16
-13.960  0.486E-16
-13.950  0.594E-16
-13.940  0.724E-16
-13.930  0.898E-16
-13.920  0.109E-15
-13.910  0.136E-15
-13.900  0.166E-15
-13.890  0.202E-15
-13.880  0.246E-15
-13.870  0.300E-15
-13.860  0.366E-15
-13.850  0.444E-15
-13.840  0.538E-15
-13.830  0.652E-15
-13.820  0.794E-15
-13.810  0.960E-15
-13.800  0.117E-14
-13.790  0.141E-14
-13.780  0.170E-14
-13.770  0.206E-14
-13.760  0.248E-14
-13.750  0.300E-14
-13.740  0.360E-14
-13.730  0.434E-14
-13.720  0.524E-14
-13.710  0.630E-14
-13.700  0.756E-14
-13.690  0.910E-14
-13.680  0.109E-13
-13.670  0.131E-13
-13.660  0.157E-13
-13.650  0.188E-13
-13.640  0.226E-13
-13.630  0.270E-13
-13.620  0.322E-13
-13.610  0.384E-13
-13.600  0.460E-13
-13.590  0.548E-13
-13.580  0.654E-13
-13.570  0.778E-13
-13.560  0.928E-13
-13.550  0.110E-12
-13.540  0.131E-12
-13.530  0.156E-12
-13.520  0.185E-12
-13.510  0.220E-12
-13.500  0.260E-12
-13.490  0.309E-12
-13.480  0.366E-12
-13.470  0.434E-12
-13.460  0.512E-12
-13.450  0.606E-12
-13.440  0.716E-12
-13.430  0.844E-12
-13.420  0.996E-12
-13.410  0.117E-11
-13.400  0.138E-11
-13.390  0.163E-11
-13.380  0.192E-11
-13.370  0.226E-11
-13.360  0.264E-11
-13.350  0.310E-11
-13.340  0.364E-11
-13.330  0.428E-11
-13.320  0.500E-11
-13.310  0.586E-11
-13.300  0.686E-11
-13.290  0.802E-11
-13.280  0.938E-11
-13.270  0.110E-10
-13.260  0.128E-10
-13.250  0.149E-10
-13.240  0.174E-10
-13.230  0.202E-10
-13.220  0.236E-10
-13.210  0.274E-10
-13.200  0.318E-10
-13.190  0.370E-10
-13.180  0.430E-10
-13.170  0.498E-10
-13.160  0.578E-10
-13.150  0.670E-10
-13.140  0.774E-10
-13.130  0.896E-10
-13.120  0.104E-09
-13.110  0.120E-09
-13.100  0.138E-09
-13.090  0.159E-09
-13.080  0.184E-09
-13.070  0.212E-09
-13.060  0.244E-09
-13.050  0.280E-09
-13.040  0.322E-09
-13.030  0.372E-09
-13.020  0.426E-09
-13.010  0.490E-09
-13.000  0.562E-09
-12.990  0.644E-09
-12.980  0.736E-09
-12.970  0.844E-09
-12.960  0.964E-09
-12.950  0.110E-08
-12.940  0.126E-08
-12.930  0.144E-08
-12.920  0.164E-08
-12.910  0.187E-08
-12.900  0.213E-08
-12.890  0.242E-08
-12.880  0.276E-08
-12.870  0.314E-08
-12.860  0.356E-08
-12.850  0.404E-08
-12.840  0.460E-08
-12.830  0.520E-08
-12.820  0.590E-08
-12.810  0.668E-08
-12.800  0.756E-08
-12.790  0.856E-08
-12.780  0.966E-08
-12.770  0.109E-07
-12.760  0.123E-07
-12.750  0.139E-07
-12.740  0.157E-07
-12.730  0.177E-07
-12.720  0.199E-07
-12.710  0.224E-07
-12.700  0.252E-07
-12.690  0.282E-07
-12.680  0.317E-07
-12.670  0.356E-07
-12.660  0.398E-07
-12.650  0.446E-07
-12.640  0.500E-07
-12.630  0.560E-07
-12.620  0.626E-07
-12.610  0.700E-07
-12.600  0.782E-07
-12.590  0.872E-07
-12.580  0.972E-07
-12.570  0.108E-06
-12.560  0.121E-06
-12.550  0.134E-06
-12.540  0.149E-06
-12.530  0.166E-06
-12.520  0.185E-06
-12.510  0.204E-06
-12.500  0.228E-06
-12.490  0.252E-06
-12.480  0.280E-06
-12.470  0.310E-06
-12.460  0.342E-06
-12.450  0.378E-06
-12.440  0.418E-06
-12.430  0.462E-06
-12.420  0.510E-06
-12.410  0.562E-06
-12.400  0.618E-06
-12.390  0.682E-06
-12.380  0.750E-06
-12.370  0.826E-06
-12.360  0.908E-06
-12.350  0.996E-06
-12.340  0.109E-05
-12.330  0.120E-05
-12.320  0.132E-05
-12.310  0.144E-05
-12.300  0.158E-05
-12.290  0.173E-05
-12.280  0.189E-05
-12.270  0.206E-05
-12.260  0.226E-05
-12.250  0.246E-05
-12.240  0.268E-05
-12.230  0.292E-05
-12.220  0.318E-05
-12.210  0.346E-05
-12.200  0.376E-05
-12.190  0.410E-05
-12.180  0.444E-05
-12.170  0.482E-05
-12.160  0.524E-05
-12.150  0.568E-05
-12.140  0.616E-05
-12.130  0.666E-05
-12.120  0.722E-05
-12.110  0.780E-05
-12.100  0.842E-05
-12.090  0.910E-05
-12.080  0.982E-05
-12.070  0.106E-04
-12.060  0.114E-04
-12.050  0.123E-04
-12.040  0.132E-04
-12.030  0.142E-04
-12.020  0.153E-04
-12.010  0.165E-04
-12.000  0.177E-04
-11.990  0.190E-04
-11.980  0.204E-04
-11.970  0.218E-04
-11.960  0.234E-04
-11.950  0.250E-04
-11.940  0.268E-04
-11.930  0.286E-04
-11.920  0.304E-04
-11.910  0.326E-04
-11.900  0.348E-04
-11.890  0.370E-04
-11.880  0.394E-04
-11.870  0.420E-04
-11.860  0.446E-04
-11.850  0.476E-04
-11.840  0.506E-04
-11.830  0.536E-04
-11.820  0.570E-04
-11.810  0.604E-04
-11.800  0.640E-04
-11.790  0.678E-04
-11.780  0.718E-04
-11.770  0.760E-04
-11.760  0.804E-04
-11.750  0.850E-04
-11.740  0.898E-04
-11.730  0.948E-04
-11.720  0.999E-04
-11.710  0.105E-03
-11.700  0.111E-03
-11.690  0.117E-03
-11.680  0.123E-03
-11.670  0.129E-03
-11.660  0.136E-03
-11.650  0.143E-03
-11.640  0.150E-03
-11.630  0.157E-03
-11.620  0.165E-03
-11.610  0.173E-03
-11.600  0.181E-03
-11.590  0.189E-03
-11.580  0.198E-03
-11.570  0.206E-03
-11.560  0.216E-03
-11.550  0.226E-03
-11.540  0.236E-03
-11.530  0.246E-03
-11.520  0.256E-03
-11.510  0.266E-03
-11.500  0.278E-03
-11.490  0.288E-03
-11.480  0.300E-03
-11.470  0.312E-03
-11.460  0.324E-03
-11.450  0.336E-03
-11.440  0.348E-03
-11.430  0.362E-03
-11.420  0.374E-03
-11.410  0.388E-03
-11.400  0.401E-03
-11.390  0.414E-03
-11.380  0.428E-03
-11.370  0.444E-03
-11.360  0.458E-03
-11.350  0.472E-03
-11.340  0.488E-03
-11.330  0.502E-03
-11.320  0.518E-03
-11.310  0.532E-03
-11.300  0.548E-03
-11.290  0.564E-03
-11.280  0.580E-03
-11.270  0.596E-03
-11.260  0.612E-03
-11.250  0.628E-03
-11.240  0.646E-03
-11.230  0.662E-03
-11.220  0.678E-03
-11.210  0.696E-03
-11.200  0.712E-03
-11.190  0.728E-03
-11.180  0.746E-03
-11.170  0.762E-03
-11.160  0.780E-03
-11.150  0.796E-03
-11.140  0.812E-03
-11.130  0.830E-03
-11.120  0.846E-03
-11.110  0.864E-03
-11.100  0.880E-03
-11.090  0.896E-03
-11.080  0.912E-03
-11.070  0.930E-03
-11.060  0.946E-03
-11.050  0.962E-03
-11.040  0.978E-03
-11.030  0.994E-03
-11.020  0.101E-02
-11.010  0.103E-02
-11.000  0.104E-02
-10.990  0.106E-02
-10.980  0.107E-02
-10.970  0.109E-02
-10.960  0.110E-02
-10.950  0.112E-02
-10.940  0.113E-02
-10.930  0.114E-02
-10.920  0.116E-02
-10.910  0.117E-02
-10.900  0.119E-02
-10.890  0.120E-02
-10.880  0.121E-02
-10.870  0.123E-02
-10.860  0.124E-02
-10.850  0.125E-02
-10.840  0.126E-02
-10.830  0.128E-02
-10.820  0.129E-02
-10.810  0.130E-02
-10.800  0.131E-02
-10.790  0.132E-02
-10.780  0.133E-02
-10.770  0.134E-02
-10.760  0.136E-02
-10.750  0.137E-02
-10.740  0.138E-02
-10.730  0.139E-02
-10.720  0.140E-02
-10.710  0.141E-02
-10.700  0.142E-02
-10.690  0.143E-02
-10.680  0.144E-02
-10.670  0.145E-02
-10.660  0.146E-02
-10.650  0.147E-02
-10.640  0.148E-02
-10.630  0.149E-02
-10.620  0.150E-02
-10.610  0.151E-02
-10.600  0.152E-02
-10.590  0.153E-02
-10.580  0.154E-02
-10.570  0.155E-02
-10.560  0.155E-02
-10.550  0.156E-02
-10.540  0.157E-02
-10.530  0.158E-02
-10.520  0.159E-02
-10.510  0.160E-02
-10.500  0.161E-02
-10.490  0.162E-02
-10.480  0.163E-02
-10.470  0.164E-02
-10.460  0.165E-02
-10.450  0.166E-02
-10.440  0.167E-02
-10.430  0.169E-02
-10.420  0.170E-02
-10.410  0.171E-02
-10.400  0.172E-02
-10.390  0.173E-02
-10.380  0.174E-02
-10.370  0.175E-02
-10.360  0.176E-02
-10.350  0.178E-02
-10.340  0.179E-02
-10.330  0.180E-02
-10.320  0.181E-02
-10.310  0.182E-02
-10.300  0.184E-02
-10.290  0.185E-02
-10.280  0.186E-02
-10.270  0.187E-02
-10.260  0.189E-02
-10.250  0.190E-02
-10.240  0.191E-02
-10.230  0.192E-02
-10.220  0.194E-02
-10.210  0.195E-02
-10.200  0.196E-02
-10.190  0.198E-02
-10.180  0.199E-02
-10.170  0.200E-02
-10.160  0.202E-02
-10.150  0.204E-02
-10.140  0.204E-02
-10.130  0.206E-02
-10.120  0.206E-02
-10.110  0.208E-02
-10.100  0.210E-02
-10.090  0.210E-02
-10.080  0.212E-02
-10.070  0.214E-02
-10.060  0.214E-02
-10.050  0.216E-02
-10.040  0.216E-02
-10.030  0.218E-02
-10.020  0.218E-02
-10.010  0.220E-02
-10.000  0.220E-02
 -9.990  0.222E-02
 -9.980  0.222E-02
 -9.970  0.224E-02
 -9.960  0.224E-02
 -9.950  0.226E-02
 -9.940  0.226E-02
 -9.930  0.226E-02
 -9.920  0.228E-02
 -9.910  0.228E-02
 -9.900  0.228E-02
 -9.890  0.229E-02
 -9.880  0.230E-02
 -9.870  0.230E-02
 -9.860  0.230E-02
 -9.850  0.230E-02
 -9.840  0.230E-02
 -9.830  0.230E-02
 -9.820  0.230E-02
 -9.810  0.230E-02
 -9.800  0.230E-02
 -9.790  0.230E-02
 -9.780  0.230E-02
 -9.770  0.228E-02
 -9.760  0.228E-02
 -9.750  0.228E-02
 -9.740  0.226E-02
 -9.730  0.226E-02
 -9.720  0.224E-02
 -9.710  0.224E-02
 -9.700  0.222E-02
 -9.690  0.222E-02
 -9.680  0.220E-02
 -9.670  0.218E-02
 -9.660  0.218E-02
 -9.650  0.216E-02
 -9.640  0.214E-02
 -9.630  0.212E-02
 -9.620  0.210E-02
 -9.610  0.208E-02
 -9.600  0.206E-02
 -9.590  0.204E-02
 -9.580  0.202E-02
 -9.570  0.200E-02
 -9.560  0.197E-02
 -9.550  0.195E-02
 -9.540  0.192E-02
 -9.530  0.190E-02
 -9.520  0.187E-02
 -9.510  0.184E-02
 -9.500  0.181E-02
 -9.490  0.179E-02
 -9.480  0.176E-02
 -9.470  0.173E-02
 -9.460  0.170E-02
 -9.450  0.167E-02
 -9.440  0.163E-02
 -9.430  0.160E-02
 -9.420  0.157E-02
 -9.410  0.154E-02
 -9.400  0.151E-02
 -9.390  0.148E-02
 -9.380  0.144E-02
 -9.370  0.141E-02
 -9.360  0.138E-02
 -9.350  0.134E-02
 -9.340  0.131E-02
 -9.330  0.128E-02
 -9.320  0.125E-02
 -9.310  0.121E-02
 -9.300  0.118E-02
 -9.290  0.115E-02
 -9.280  0.112E-02
 -9.270  0.109E-02
 -9.260  0.105E-02
 -9.250  0.102E-02
 -9.240  0.994E-03
 -9.230  0.964E-03
 -9.220  0.934E-03
 -9.210  0.906E-03
 -9.200  0.878E-03
 -9.190  0.850E-03
 -9.180  0.822E-03
 -9.170  0.796E-03
 -9.160  0.770E-03
 -9.150  0.746E-03
 -9.140  0.722E-03
 -9.130  0.698E-03
 -9.120  0.676E-03
 -9.110  0.654E-03
 -9.100  0.634E-03
 -9.090  0.614E-03
 -9.080  0.596E-03
 -9.070  0.578E-03
 -9.060  0.561E-03
 -9.050  0.546E-03
 -9.040  0.530E-03
 -9.030  0.516E-03
 -9.020  0.504E-03
 -9.010  0.492E-03
 -9.000  0.481E-03
 -8.990  0.472E-03
 -8.980  0.462E-03
 -8.970  0.456E-03
 -8.960  0.448E-03
 -8.950  0.444E-03
 -8.940  0.438E-03
 -8.930  0.436E-03
 -8.920  0.434E-03
 -8.910  0.432E-03
 -8.900  0.432E-03
 -8.890  0.432E-03
 -8.880  0.434E-03
 -8.870  0.438E-03
 -8.860  0.442E-03
 -8.850  0.446E-03
 -8.840  0.452E-03
 -8.830  0.460E-03
 -8.820  0.468E-03
 -8.810  0.476E-03
 -8.800  0.486E-03
 -8.790  0.498E-03
 -8.780  0.510E-03
 -8.770  0.522E-03
 -8.760  0.536E-03
 -8.750  0.550E-03
 -8.740  0.564E-03
 -8.730  0.580E-03
 -8.720  0.598E-03
 -8.710  0.614E-03
 -8.700  0.632E-03
 -8.690  0.652E-03
 -8.680  0.670E-03
 -8.670  0.691E-03
 -8.660  0.712E-03
 -8.650  0.733E-03
 -8.640  0.754E-03
 -8.630  0.778E-03
 -8.620  0.800E-03
 -8.610  0.824E-03
 -8.600  0.846E-03
 -8.590  0.871E-03
 -8.580  0.896E-03
 -8.570  0.920E-03
 -8.560  0.946E-03
 -8.550  0.970E-03
 -8.540  0.996E-03
 -8.530  0.102E-02
 -8.520  0.105E-02
 -8.510  0.107E-02
 -8.500  0.110E-02
 -8.490  0.113E-02
 -8.480  0.115E-02
 -8.470  0.118E-02
 -8.460  0.121E-02
 -8.450  0.123E-02
 -8.440  0.126E-02
 -8.430  0.128E-02
 -8.420  0.131E-02
 -8.410  0.133E-02
 -8.400  0.136E-02
 -8.390  0.138E-02
 -8.380  0.141E-02
 -8.370  0.143E-02
 -8.360  0.146E-02
 -8.350  0.148E-02
 -8.340  0.151E-02
 -8.330  0.153E-02
 -8.320  0.155E-02
 -8.310  0.157E-02
 -8.300  0.159E-02
 -8.290  0.161E-02
 -8.280  0.163E-02
 -8.270  0.165E-02
 -8.260  0.167E-02
 -8.250  0.169E-02
 -8.240  0.171E-02
 -8.230  0.173E-02
 -8.220  0.174E-02
 -8.210  0.176E-02
 -8.200  0.177E-02
 -8.190  0.179E-02
 -8.180  0.180E-02
 -8.170  0.182E-02
 -8.160  0.183E-02
 -8.150  0.184E-02
 -8.140  0.185E-02
 -8.130  0.186E-02
 -8.120  0.187E-02
 -8.110  0.188E-02
 -8.100  0.188E-02
 -8.090  0.189E-02
 -8.080  0.190E-02
 -8.070  0.190E-02
 -8.060  0.191E-02
 -8.050  0.191E-02
 -8.040  0.191E-02
 -8.030  0.191E-02
 -8.020  0.192E-02
 -8.010  0.192E-02
 -8.000  0.192E-02
 -7.990  0.192E-02
 -7.980  0.191E-02
 -7.970  0.191E-02
 -7.960  0.191E-02
 -7.950  0.191E-02
 -7.940  0.190E-02
 -7.930  0.190E-02
 -7.920  0.189E-02
 -7.910  0.189E-02
 -7.900  0.188E-02
 -7.890  0.187E-02
 -7.880  0.186E-02
 -7.870  0.186E-02
 -7.860  0.185E-02
 -7.850  0.184E-02
 -7.840  0.183E-02
 -7.830  0.182E-02
 -7.820  0.181E-02
 -7.810  0.180E-02
 -7.800  0.179E-02
 -7.790  0.178E-02
 -7.780  0.176E-02
 -7.770  0.175E-02
 -7.760  0.174E-02
 -7.750  0.173E-02
 -7.740  0.172E-02
 -7.730  0.170E-02
 -7.720  0.169E-02
 -7.710  0.168E-02
 -7.700  0.167E-02
 -7.690  0.165E-02
 -7.680  0.164E-02
 -7.670  0.163E-02
 -7.660  0.161E-02
 -7.650  0.160E-02
 -7.640  0.159E-02
 -7.630  0.157E-02
 -7.620  0.156E-02
 -7.610  0.155E-02
 -7.600  0.153E-02
 -7.590  0.152E-02
 -7.580  0.151E-02
 -7.570  0.149E-02
 -7.560  0.148E-02
 -7.550  0.147E-02
 -7.540  0.146E-02
 -7.530  0.144E-02
 -7.520  0.143E-02
 -7.510  0.142E-02
 -7.500  0.141E-02
 -7.490  0.140E-02
 -7.480  0.139E-02
 -7.470  0.137E-02
 -7.460  0.136E-02
 -7.450  0.135E-02
 -7.440  0.134E-02
 -7.430  0.133E-02
 -7.420  0.132E-02
 -7.410  0.131E-02
 -7.400  0.130E-02
 -7.390  0.129E-02
 -7.380  0.128E-02
 -7.370  0.127E-02
 -7.360  0.126E-02
 -7.350  0.126E-02
 -7.340  0.125E-02
 -7.330  0.124E-02
 -7.320  0.123E-02
 -7.310  0.122E-02
 -7.300  0.121E-02
 -7.290  0.121E-02
 -7.280  0.120E-02
 -7.270  0.119E-02
 -7.260  0.118E-02
 -7.250  0.118E-02
 -7.240  0.117E-02
 -7.230  0.116E-02
 -7.220  0.116E-02
 -7.210  0.115E-02
 -7.200  0.114E-02
 -7.190  0.114E-02
 -7.180  0.113E-02
 -7.170  0.113E-02
 -7.160  0.112E-02
 -7.150  0.111E-02
 -7.140  0.111E-02
 -7.130  0.110E-02
 -7.120  0.110E-02
 -7.110  0.109E-02
 -7.100  0.109E-02
 -7.090  0.108E-02
 -7.080  0.108E-02
 -7.070  0.107E-02
 -7.060  0.107E-02
 -7.050  0.106E-02
 -7.040  0.106E-02
 -7.030  0.105E-02
 -7.020  0.105E-02
 -7.010  0.104E-02
 -7.000  0.104E-02
 -6.990  0.103E-02
 -6.980  0.103E-02
 -6.970  0.103E-02
 -6.960  0.102E-02
 -6.950  0.102E-02
 -6.940  0.101E-02
 -6.930  0.101E-02
 -6.920  0.100E-02
 -6.910  0.100E-02
 -6.900  0.996E-03
 -6.890  0.990E-03
 -6.880  0.986E-03
 -6.870  0.982E-03
 -6.860  0.978E-03
 -6.850  0.974E-03
 -6.840  0.970E-03
 -6.830  0.966E-03
 -6.820  0.960E-03
 -6.810  0.956E-03
 -6.800  0.952E-03
 -6.790  0.948E-03
 -6.780  0.944E-03
 -6.770  0.940E-03
 -6.760  0.936E-03
 -6.750  0.932E-03
 -6.740  0.926E-03
 -6.730  0.922E-03
 -6.720  0.918E-03
 -6.710  0.914E-03
 -6.700  0.910E-03
 -6.690  0.906E-03
 -6.680  0.900E-03
 -6.670  0.896E-03
 -6.660  0.892E-03
 -6.650  0.888E-03
 -6.640  0.884E-03
 -6.630  0.880E-03
 -6.620  0.874E-03
 -6.610  0.870E-03
 -6.600  0.866E-03
 -6.590  0.862E-03
 -6.580  0.858E-03
 -6.570  0.852E-03
 -6.560  0.848E-03
 -6.550  0.844E-03
 -6.540  0.840E-03
 -6.530  0.836E-03
 -6.520  0.830E-03
 -6.510  0.826E-03
 -6.500  0.822E-03
 -6.490  0.818E-03
 -6.480  0.812E-03
 -6.470  0.808E-03
 -6.460  0.804E-03
 -6.450  0.799E-03
 -6.440  0.794E-03
 -6.430  0.790E-03
 -6.420  0.786E-03
 -6.410  0.780E-03
 -6.400  0.776E-03
 -6.390  0.772E-03
 -6.380  0.766E-03
 -6.370  0.762E-03
 -6.360  0.758E-03
 -6.350  0.752E-03
 -6.340  0.748E-03
 -6.330  0.744E-03
 -6.320  0.738E-03
 -6.310  0.734E-03
 -6.300  0.730E-03
 -6.290  0.724E-03
 -6.280  0.720E-03
 -6.270  0.716E-03
 -6.260  0.710E-03
 -6.250  0.706E-03
 -6.240  0.700E-03
 -6.230  0.696E-03
 -6.220  0.691E-03
 -6.210  0.686E-03
 -6.200  0.682E-03
 -6.190  0.676E-03
 -6.180  0.672E-03
 -6.170  0.666E-03
 -6.160  0.662E-03
 -6.150  0.656E-03
 -6.140  0.652E-03
 -6.130  0.646E-03
 -6.120  0.642E-03
 -6.110  0.636E-03
 -6.100  0.632E-03
 -6.090  0.626E-03
 -6.080  0.622E-03
 -6.070  0.616E-03
 -6.060  0.610E-03
 -6.050  0.606E-03
 -6.040  0.600E-03
 -6.030  0.596E-03
 -6.020  0.590E-03
 -6.010  0.584E-03
 -6.000  0.580E-03
 -5.990  0.574E-03
 -5.980  0.568E-03
 -5.970  0.564E-03
 -5.960  0.558E-03
 -5.950  0.552E-03
 -5.940  0.546E-03
 -5.930  0.542E-03
 -5.920  0.536E-03
 -5.910  0.530E-03
 -5.900  0.524E-03
 -5.890  0.520E-03
 -5.880  0.514E-03
 -5.870  0.508E-03
 -5.860  0.502E-03
 -5.850  0.496E-03
 -5.840  0.490E-03
 -5.830  0.486E-03
 -5.820  0.480E-03
 -5.810  0.474E-03
 -5.800  0.468E-03
 -5.790  0.462E-03
 -5.780  0.456E-03
 -5.770  0.450E-03
 -5.760  0.444E-03
 -5.750  0.438E-03
 -5.740  0.432E-03
 -5.730  0.426E-03
 -5.720  0.420E-03
 -5.710  0.414E-03
 -5.700  0.408E-03
 -5.690  0.402E-03
 -5.680  0.396E-03
 -5.670  0.390E-03
 -5.660  0.384E-03
 -5.650  0.378E-03
 -5.640  0.372E-03
 -5.630  0.366E-03
 -5.620  0.360E-03
 -5.610  0.354E-03
 -5.600  0.348E-03
 -5.590  0.342E-03
 -5.580  0.336E-03
 -5.570  0.330E-03
 -5.560  0.324E-03
 -5.550  0.318E-03
 -5.540  0.312E-03
 -5.530  0.306E-03
 -5.520  0.300E-03
 -5.510  0.296E-03
 -5.500  0.290E-03
 -5.490  0.284E-03
 -5.480  0.278E-03
 -5.470  0.272E-03
 -5.460  0.268E-03
 -5.450  0.262E-03
 -5.440  0.256E-03
 -5.430  0.252E-03
 -5.420  0.246E-03
 -5.410  0.242E-03
 -5.400  0.238E-03
 -5.390  0.232E-03
 -5.380  0.228E-03
 -5.370  0.224E-03
 -5.360  0.220E-03
 -5.350  0.216E-03
 -5.340  0.212E-03
 -5.330  0.208E-03
 -5.320  0.204E-03
 -5.310  0.200E-03
 -5.300  0.197E-03
 -5.290  0.194E-03
 -5.280  0.191E-03
 -5.270  0.189E-03
 -5.260  0.186E-03
 -5.250  0.184E-03
 -5.240  0.182E-03
 -5.230  0.181E-03
 -5.220  0.179E-03
 -5.210  0.178E-03
 -5.200  0.177E-03
 -5.190  0.177E-03
 -5.180  0.177E-03
 -5.170  0.177E-03
 -5.160  0.177E-03
 -5.150  0.178E-03
 -5.140  0.179E-03
 -5.130  0.180E-03
 -5.120  0.181E-03
 -5.110  0.183E-03
 -5.100  0.186E-03
 -5.090  0.188E-03
 -5.080  0.191E-03
 -5.070  0.195E-03
 -5.060  0.198E-03
 -5.050  0.202E-03
 -5.040  0.206E-03
 -5.030  0.212E-03
 -5.020  0.216E-03
 -5.010  0.222E-03
 -5.000  0.228E-03
 -4.990  0.234E-03
 -4.980  0.242E-03
 -4.970  0.248E-03
 -4.960  0.256E-03
 -4.950  0.264E-03
 -4.940  0.272E-03
 -4.930  0.280E-03
 -4.920  0.290E-03
 -4.910  0.298E-03
 -4.900  0.308E-03
 -4.890  0.318E-03
 -4.880  0.328E-03
 -4.870  0.340E-03
 -4.860  0.350E-03
 -4.850  0.362E-03
 -4.840  0.374E-03
 -4.830  0.386E-03
 -4.820  0.398E-03
 -4.810  0.412E-03
 -4.800  0.424E-03
 -4.790  0.438E-03
 -4.780  0.452E-03
 -4.770  0.466E-03
 -4.760  0.480E-03
 -4.750  0.494E-03
 -4.740  0.510E-03
 -4.730  0.524E-03
 -4.720  0.540E-03
 -4.710  0.556E-03
 -4.700  0.572E-03
 -4.690  0.588E-03
 -4.680  0.604E-03
 -4.670  0.620E-03
 -4.660  0.636E-03
 -4.650  0.654E-03
 -4.640  0.670E-03
 -4.630  0.688E-03
 -4.620  0.704E-03
 -4.610  0.722E-03
 -4.600  0.740E-03
 -4.590  0.758E-03
 -4.580  0.776E-03
 -4.570  0.792E-03
 -4.560  0.810E-03
 -4.550  0.828E-03
 -4.540  0.846E-03
 -4.530  0.864E-03
 -4.520  0.884E-03
 -4.510  0.902E-03
 -4.500  0.920E-03
 -4.490  0.938E-03
 -4.480  0.956E-03
 -4.470  0.974E-03
 -4.460  0.994E-03
 -4.450  0.101E-02
 -4.440  0.103E-02
 -4.430  0.105E-02
 -4.420  0.107E-02
 -4.410  0.109E-02
 -4.400  0.110E-02
 -4.390  0.112E-02
 -4.380  0.114E-02
 -4.370  0.116E-02
 -4.360  0.118E-02
 -4.350  0.120E-02
 -4.340  0.122E-02
 -4.330  0.124E-02
 -4.320  0.125E-02
 -4.310  0.127E-02
 -4.300  0.129E-02
 -4.290  0.131E-02
 -4.280  0.133E-02
 -4.270  0.135E-02
 -4.260  0.137E-02
 -4.250  0.139E-02
 -4.240  0.141E-02
 -4.230  0.143E-02
 -4.220  0.145E-02
 -4.210  0.147E-02
 -4.200  0.149E-02
 -4.190  0.151E-02
 -4.180  0.153E-02
 -4.170  0.155E-02
 -4.160  0.157E-02
 -4.150  0.159E-02
 -4.140  0.161E-02
 -4.130  0.164E-02
 -4.120  0.166E-02
 -4.110  0.168E-02
 -4.100  0.170E-02
 -4.090  0.173E-02
 -4.080  0.175E-02
 -4.070  0.177E-02
 -4.060  0.179E-02
 -4.050  0.182E-02
 -4.040  0.184E-02
 -4.030  0.187E-02
 -4.020  0.189E-02
 -4.010  0.192E-02
 -4.000  0.194E-02
 -3.990  0.197E-02
 -3.980  0.199E-02
 -3.970  0.202E-02
 -3.960  0.204E-02
 -3.950  0.208E-02
 -3.940  0.210E-02
 -3.930  0.212E-02
 -3.920  0.216E-02
 -3.910  0.218E-02
 -3.900  0.222E-02
 -3.890  0.224E-02
 -3.880  0.228E-02
 -3.870  0.230E-02
 -3.860  0.234E-02
 -3.850  0.236E-02
 -3.840  0.240E-02
 -3.830  0.242E-02
 -3.820  0.246E-02
 -3.810  0.248E-02
 -3.800  0.252E-02
 -3.790  0.254E-02
 -3.780  0.258E-02
 -3.770  0.260E-02
 -3.760  0.264E-02
 -3.750  0.266E-02
 -3.740  0.270E-02
 -3.730  0.272E-02
 -3.720  0.276E-02
 -3.710  0.278E-02
 -3.700  0.282E-02
 -3.690  0.284E-02
 -3.680  0.288E-02
 -3.670  0.290E-02
 -3.660  0.294E-02
 -3.650  0.296E-02
 -3.640  0.300E-02
 -3.630  0.302E-02
 -3.620  0.304E-02
 -3.610  0.308E-02
 -3.600  0.310E-02
 -3.590  0.312E-02
 -3.580  0.316E-02
 -3.570  0.318E-02
 -3.560  0.320E-02
 -3.550  0.322E-02
 -3.540  0.324E-02
 -3.530  0.326E-02
 -3.520  0.328E-02
 -3.510  0.330E-02
 -3.500  0.332E-02
 -3.490  0.334E-02
 -3.480  0.336E-02
 -3.470  0.338E-02
 -3.460  0.340E-02
 -3.450  0.340E-02
 -3.440  0.342E-02
 -3.430  0.344E-02
 -3.420  0.344E-02
 -3.410  0.346E-02
 -3.400  0.346E-02
 -3.390  0.346E-02
 -3.380  0.348E-02
 -3.370  0.348E-02
 -3.360  0.348E-02
 -3.350  0.348E-02
 -3.340  0.348E-02
 -3.330  0.348E-02
 -3.320  0.348E-02
 -3.310  0.348E-02
 -3.300  0.348E-02
 -3.290  0.348E-02
 -3.280  0.348E-02
 -3.270  0.346E-02
 -3.260  0.346E-02
 -3.250  0.344E-02
 -3.240  0.344E-02
 -3.230  0.342E-02
 -3.220  0.342E-02
 -3.210  0.340E-02
 -3.200  0.338E-02
 -3.190  0.338E-02
 -3.180  0.336E-02
 -3.170  0.334E-02
 -3.160  0.332E-02
 -3.150  0.330E-02
 -3.140  0.328E-02
 -3.130  0.326E-02
 -3.120  0.324E-02
 -3.110  0.322E-02
 -3.100  0.320E-02
 -3.090  0.316E-02
 -3.080  0.314E-02
 -3.070  0.312E-02
 -3.060  0.309E-02
 -3.050  0.306E-02
 -3.040  0.304E-02
 -3.030  0.300E-02
 -3.020  0.298E-02
 -3.010  0.296E-02
 -3.000  0.292E-02
 -2.990  0.290E-02
 -2.980  0.286E-02
 -2.970  0.284E-02
 -2.960  0.280E-02
 -2.950  0.278E-02
 -2.940  0.274E-02
 -2.930  0.270E-02
 -2.920  0.268E-02
 -2.910  0.264E-02
 -2.900  0.262E-02
 -2.890  0.258E-02
 -2.880  0.254E-02
 -2.870  0.252E-02
 -2.860  0.248E-02
 -2.850  0.244E-02
 -2.840  0.242E-02
 -2.830  0.238E-02
 -2.820  0.236E-02
 -2.810  0.232E-02
 -2.800  0.228E-02
 -2.790  0.226E-02
 -2.780  0.222E-02
 -2.770  0.218E-02
 -2.760  0.216E-02
 -2.750  0.212E-02
 -2.740  0.210E-02
 -2.730  0.206E-02
 -2.720  0.202E-02
 -2.710  0.199E-02
 -2.700  0.196E-02
 -2.690  0.193E-02
 -2.680  0.190E-02
 -2.670  0.187E-02
 -2.660  0.183E-02
 -2.650  0.180E-02
 -2.640  0.177E-02
 -2.630  0.174E-02
 -2.620  0.171E-02
 -2.610  0.168E-02
 -2.600  0.165E-02
 -2.590  0.162E-02
 -2.580  0.159E-02
 -2.570  0.156E-02
 -2.560  0.152E-02
 -2.550  0.149E-02
 -2.540  0.146E-02
 -2.530  0.143E-02
 -2.520  0.140E-02
 -2.510  0.137E-02
 -2.500  0.134E-02
 -2.490  0.132E-02
 -2.480  0.129E-02
 -2.470  0.126E-02
 -2.460  0.123E-02
 -2.450  0.120E-02
 -2.440  0.117E-02
 -2.430  0.114E-02
 -2.420  0.111E-02
 -2.410  0.109E-02
 -2.400  0.106E-02
 -2.390  0.103E-02
 -2.380  0.100E-02
 -2.370  0.976E-03
 -2.360  0.948E-03
 -2.350  0.922E-03
 -2.340  0.896E-03
 -2.330  0.870E-03
 -2.320  0.844E-03
 -2.310  0.818E-03
 -2.300  0.792E-03
 -2.290  0.768E-03
 -2.280  0.744E-03
 -2.270  0.720E-03
 -2.260  0.696E-03
 -2.250  0.673E-03
 -2.240  0.650E-03
 -2.230  0.628E-03
 -2.220  0.606E-03
 -2.210  0.584E-03
 -2.200  0.564E-03
 -2.190  0.544E-03
 -2.180  0.524E-03
 -2.170  0.504E-03
 -2.160  0.486E-03
 -2.150  0.468E-03
 -2.140  0.450E-03
 -2.130  0.434E-03
 -2.120  0.418E-03
 -2.110  0.402E-03
 -2.100  0.388E-03
 -2.090  0.374E-03
 -2.080  0.360E-03
 -2.070  0.348E-03
 -2.060  0.336E-03
 -2.050  0.324E-03
 -2.040  0.314E-03
 -2.030  0.305E-03
 -2.020  0.296E-03
 -2.010  0.288E-03
 -2.000  0.280E-03
 -1.990  0.274E-03
 -1.980  0.268E-03
 -1.970  0.264E-03
 -1.960  0.260E-03
 -1.950  0.256E-03
 -1.940  0.254E-03
 -1.930  0.252E-03
 -1.920  0.252E-03
 -1.910  0.252E-03
 -1.900  0.252E-03
 -1.890  0.254E-03
 -1.880  0.256E-03
 -1.870  0.260E-03
 -1.860  0.264E-03
 -1.850  0.268E-03
 -1.840  0.274E-03
 -1.830  0.280E-03
 -1.820  0.288E-03
 -1.810  0.296E-03
 -1.800  0.304E-03
 -1.790  0.312E-03
 -1.780  0.322E-03
 -1.770  0.332E-03
 -1.760  0.344E-03
 -1.750  0.356E-03
 -1.740  0.368E-03
 -1.730  0.380E-03
 -1.720  0.394E-03
 -1.710  0.406E-03
 -1.700  0.422E-03
 -1.690  0.436E-03
 -1.680  0.450E-03
 -1.670  0.466E-03
 -1.660  0.482E-03
 -1.650  0.498E-03
 -1.640  0.516E-03
 -1.630  0.532E-03
 -1.620  0.550E-03
 -1.610  0.566E-03
 -1.600  0.584E-03
 -1.590  0.602E-03
 -1.580  0.620E-03
 -1.570  0.638E-03
 -1.560  0.656E-03
 -1.550  0.676E-03
 -1.540  0.694E-03
 -1.530  0.712E-03
 -1.520  0.730E-03
 -1.510  0.748E-03
 -1.500  0.768E-03
 -1.490  0.786E-03
 -1.480  0.804E-03
 -1.470  0.822E-03
 -1.460  0.840E-03
 -1.450  0.858E-03
 -1.440  0.876E-03
 -1.430  0.894E-03
 -1.420  0.912E-03
 -1.410  0.928E-03
 -1.400  0.946E-03
 -1.390  0.962E-03
 -1.380  0.980E-03
 -1.370  0.996E-03
 -1.360  0.101E-02
 -1.350  0.103E-02
 -1.340  0.104E-02
 -1.330  0.106E-02
 -1.320  0.107E-02
 -1.310  0.109E-02
 -1.300  0.110E-02
 -1.290  0.112E-02
 -1.280  0.113E-02
 -1.270  0.114E-02
 -1.260  0.116E-02
 -1.250  0.117E-02
 -1.240  0.118E-02
 -1.230  0.120E-02
 -1.220  0.121E-02
 -1.210  0.122E-02
 -1.200  0.123E-02
 -1.190  0.124E-02
 -1.180  0.126E-02
 -1.170  0.127E-02
 -1.160  0.128E-02
 -1.150  0.129E-02
 -1.140  0.130E-02
 -1.130  0.131E-02
 -1.120  0.132E-02
 -1.110  0.133E-02
 -1.100  0.134E-02
 -1.090  0.135E-02
 -1.080  0.136E-02
 -1.070  0.137E-02
 -1.060  0.138E-02
 -1.050  0.139E-02
 -1.040  0.140E-02
 -1.030  0.141E-02
 -1.020  0.142E-02
 -1.010  0.143E-02
 -1.000  0.144E-02
 -0.990  0.145E-02
 -0.980  0.146E-02
 -0.970  0.147E-02
 -0.960  0.148E-02
 -0.950  0.149E-02
 -0.940  0.150E-02
 -0.930  0.151E-02
 -0.920  0.152E-02
 -0.910  0.153E-02
 -0.900  0.154E-02
 -0.890  0.156E-02
 -0.880  0.157E-02
 -0.870  0.158E-02
 -0.860  0.159E-02
 -0.850  0.161E-02
 -0.840  0.162E-02
 -0.830  0.163E-02
 -0.820  0.164E-02
 -0.810  0.166E-02
 -0.800  0.167E-02
 -0.790  0.169E-02
 -0.780  0.170E-02
 -0.770  0.172E-02
 -0.760  0.173E-02
 -0.750  0.175E-02
 -0.740  0.176E-02
 -0.730  0.178E-02
 -0.720  0.179E-02
 -0.710  0.181E-02
 -0.700  0.182E-02
 -0.690  0.184E-02
 -0.680  0.186E-02
 -0.670  0.187E-02
 -0.660  0.189E-02
 -0.650  0.191E-02
 -0.640  0.193E-02
 -0.630  0.194E-02
 -0.620  0.196E-02
 -0.610  0.198E-02
 -0.600  0.199E-02
 -0.590  0.202E-02
 -0.580  0.202E-02
 -0.570  0.204E-02
 -0.560  0.206E-02
 -0.550  0.208E-02
 -0.540  0.210E-02
 -0.530  0.212E-02
 -0.520  0.212E-02
 -0.510  0.214E-02
 -0.500  0.216E-02
 -0.490  0.218E-02
 -0.480  0.220E-02
 -0.470  0.220E-02
 -0.460  0.222E-02
 -0.450  0.224E-02
 -0.440  0.226E-02
 -0.430  0.226E-02
 -0.420  0.228E-02
 -0.410  0.230E-02
 -0.400  0.230E-02
 -0.390  0.232E-02
 -0.380  0.232E-02
 -0.370  0.234E-02
 -0.360  0.234E-02
 -0.350  0.236E-02
 -0.340  0.236E-02
 -0.330  0.238E-02
 -0.320  0.238E-02
 -0.310  0.238E-02
 -0.300  0.240E-02
 -0.290  0.240E-02
 -0.280  0.240E-02
 -0.270  0.240E-02
 -0.260  0.240E-02
 -0.250  0.240E-02
 -0.240  0.242E-02
 -0.230  0.242E-02
 -0.220  0.242E-02
 -0.210  0.240E-02
 -0.200  0.240E-02
 -0.190  0.240E-02
 -0.180  0.240E-02
 -0.170  0.240E-02
 -0.160  0.240E-02
 -0.150  0.238E-02
 -0.140  0.238E-02
 -0.130  0.238E-02
 -0.120  0.236E-02
 -0.110  0.236E-02
 -0.100  0.234E-02
 -0.090  0.234E-02
 -0.080  0.232E-02
 -0.070  0.230E-02
 -0.060  0.230E-02
 -0.050  0.228E-02
 -0.040  0.226E-02
 -0.030  0.226E-02
 -0.020  0.224E-02
 -0.010  0.222E-02
 -0.000  0.220E-02
  0.010  0.218E-02
  0.020  0.216E-02
  0.030  0.214E-02
  0.040  0.212E-02
  0.050  0.210E-02
  0.060  0.208E-02
  0.070  0.206E-02
  0.080  0.204E-02
  0.090  0.202E-02
  0.100  0.199E-02
  0.110  0.197E-02
  0.120  0.195E-02
  0.130  0.192E-02
  0.140  0.190E-02
  0.150  0.188E-02
  0.160  0.185E-02
  0.170  0.183E-02
  0.180  0.180E-02
  0.190  0.178E-02
  0.200  0.175E-02
  0.210  0.173E-02
  0.220  0.170E-02
  0.230  0.168E-02
  0.240  0.165E-02
  0.250  0.163E-02
  0.260  0.160E-02
  0.270  0.158E-02
  0.280  0.155E-02
  0.290  0.153E-02
  0.300  0.151E-02
  0.310  0.148E-02
  0.320  0.146E-02
  0.330  0.144E-02
  0.340  0.142E-02
  0.350  0.140E-02
  0.360  0.137E-02
  0.370  0.135E-02
  0.380  0.133E-02
  0.390  0.131E-02
  0.400  0.130E-02
  0.410  0.128E-02
  0.420  0.126E-02
  0.430  0.124E-02
  0.440  0.123E-02
  0.450  0.121E-02
  0.460  0.120E-02
  0.470  0.119E-02
  0.480  0.117E-02
  0.490  0.116E-02
  0.500  0.115E-02
  0.510  0.114E-02
  0.520  0.113E-02
  0.530  0.112E-02
  0.540  0.112E-02
  0.550  0.111E-02
  0.560  0.111E-02
  0.570  0.110E-02
  0.580  0.110E-02
  0.590  0.110E-02
  0.600  0.110E-02
  0.610  0.110E-02
  0.620  0.110E-02
  0.630  0.110E-02
  0.640  0.110E-02
  0.650  0.111E-02
  0.660  0.111E-02
  0.670  0.112E-02
  0.680  0.113E-02
  0.690  0.113E-02
  0.700  0.114E-02
  0.710  0.115E-02
  0.720  0.116E-02
  0.730  0.118E-02
  0.740  0.119E-02
  0.750  0.120E-02
  0.760  0.122E-02
  0.770  0.123E-02
  0.780  0.125E-02
  0.790  0.127E-02
  0.800  0.128E-02
  0.810  0.130E-02
  0.820  0.132E-02
  0.830  0.134E-02
  0.840  0.136E-02
  0.850  0.138E-02
  0.860  0.140E-02
  0.870  0.142E-02
  0.880  0.145E-02
  0.890  0.147E-02
  0.900  0.149E-02
  0.910  0.151E-02
  0.920  0.154E-02
  0.930  0.156E-02
  0.940  0.159E-02
  0.950  0.161E-02
  0.960  0.163E-02
  0.970  0.166E-02
  0.980  0.168E-02
  0.990  0.171E-02
  1.000  0.173E-02
  1.010  0.175E-02
  1.020  0.178E-02
  1.030  0.180E-02
  1.040  0.183E-02
  1.050  0.185E-02
  1.060  0.187E-02
  1.070  0.189E-02
  1.080  0.191E-02
  1.090  0.194E-02
  1.100  0.196E-02
  1.110  0.198E-02
  1.120  0.200E-02
  1.130  0.202E-02
  1.140  0.204E-02
  1.150  0.206E-02
  1.160  0.206E-02
  1.170  0.208E-02
  1.180  0.210E-02
  1.190  0.212E-02
  1.200  0.214E-02
  1.210  0.214E-02
  1.220  0.216E-02
  1.230  0.216E-02
  1.240  0.218E-02
  1.250  0.218E-02
  1.260  0.220E-02
  1.270  0.220E-02
  1.280  0.222E-02
  1.290  0.222E-02
  1.300  0.222E-02
  1.310  0.222E-02
  1.320  0.224E-02
  1.330  0.224E-02
  1.340  0.224E-02
  1.350  0.224E-02
  1.360  0.224E-02
  1.370  0.224E-02
  1.380  0.224E-02
  1.390  0.224E-02
  1.400  0.224E-02
  1.410  0.224E-02
  1.420  0.222E-02
  1.430  0.222E-02
  1.440  0.222E-02
  1.450  0.222E-02
  1.460  0.220E-02
  1.470  0.220E-02
  1.480  0.220E-02
  1.490  0.218E-02
  1.500  0.218E-02
  1.510  0.216E-02
  1.520  0.216E-02
  1.530  0.216E-02
  1.540  0.214E-02
  1.550  0.214E-02
  1.560  0.212E-02
  1.570  0.211E-02
  1.580  0.210E-02
  1.590  0.208E-02
  1.600  0.208E-02
  1.610  0.206E-02
  1.620  0.206E-02
  1.630  0.204E-02
  1.640  0.204E-02
  1.650  0.202E-02
  1.660  0.202E-02
  1.670  0.200E-02
  1.680  0.199E-02
  1.690  0.198E-02
  1.700  0.197E-02
  1.710  0.196E-02
  1.720  0.195E-02
  1.730  0.194E-02
  1.740  0.193E-02
  1.750  0.192E-02
  1.760  0.191E-02
  1.770  0.190E-02
  1.780  0.189E-02
  1.790  0.188E-02
  1.800  0.187E-02
  1.810  0.186E-02
  1.820  0.186E-02
  1.830  0.185E-02
  1.840  0.184E-02
  1.850  0.183E-02
  1.860  0.183E-02
  1.870  0.182E-02
  1.880  0.181E-02
  1.890  0.181E-02
  1.900  0.180E-02
  1.910  0.180E-02
  1.920  0.179E-02
  1.930  0.179E-02
  1.940  0.178E-02
  1.950  0.178E-02
  1.960  0.177E-02
  1.970  0.177E-02
  1.980  0.177E-02
  1.990  0.176E-02
  2.000  0.176E-02
  2.010  0.176E-02
  2.020  0.175E-02
  2.030  0.175E-02
  2.040  0.175E-02
  2.050  0.174E-02
  2.060  0.174E-02
  2.070  0.174E-02
  2.080  0.173E-02
  2.090  0.173E-02
  2.100  0.173E-02
  2.110  0.173E-02
  2.120  0.172E-02
  2.130  0.172E-02
  2.140  0.172E-02
  2.150  0.171E-02
  2.160  0.171E-02
  2.170  0.171E-02
  2.180  0.170E-02
  2.190  0.170E-02
  2.200  0.170E-02
  2.210  0.169E-02
  2.220  0.169E-02
  2.230  0.168E-02
  2.240  0.168E-02
  2.250  0.168E-02
  2.260  0.167E-02
  2.270  0.166E-02
  2.280  0.166E-02
  2.290  0.165E-02
  2.300  0.165E-02
  2.310  0.164E-02
  2.320  0.163E-02
  2.330  0.163E-02
  2.340  0.162E-02
  2.350  0.161E-02
  2.360  0.160E-02
  2.370  0.160E-02
  2.380  0.159E-02
  2.390  0.158E-02
  2.400  0.157E-02
  2.410  0.156E-02
  2.420  0.155E-02
  2.430  0.154E-02
  2.440  0.153E-02
  2.450  0.152E-02
  2.460  0.151E-02
  2.470  0.150E-02
  2.480  0.148E-02
  2.490  0.147E-02
  2.500  0.146E-02
  2.510  0.145E-02
  2.520  0.143E-02
  2.530  0.142E-02
  2.540  0.140E-02
  2.550  0.139E-02
  2.560  0.138E-02
  2.570  0.136E-02
  2.580  0.135E-02
  2.590  0.133E-02
  2.600  0.131E-02
  2.610  0.130E-02
  2.620  0.128E-02
  2.630  0.127E-02
  2.640  0.125E-02
  2.650  0.123E-02
  2.660  0.122E-02
  2.670  0.120E-02
  2.680  0.118E-02
  2.690  0.116E-02
  2.700  0.115E-02
  2.710  0.113E-02
  2.720  0.111E-02
  2.730  0.109E-02
  2.740  0.108E-02
  2.750  0.106E-02
  2.760  0.104E-02
  2.770  0.102E-02
  2.780  0.100E-02
  2.790  0.984E-03
  2.800  0.966E-03
  2.810  0.948E-03
  2.820  0.930E-03
  2.830  0.912E-03
  2.840  0.894E-03
  2.850  0.876E-03
  2.860  0.858E-03
  2.870  0.840E-03
  2.880  0.822E-03
  2.890  0.804E-03
  2.900  0.788E-03
  2.910  0.770E-03
  2.920  0.752E-03
  2.930  0.736E-03
  2.940  0.718E-03
  2.950  0.702E-03
  2.960  0.684E-03
  2.970  0.668E-03
  2.980  0.652E-03
  2.990  0.636E-03
  3.000  0.620E-03
  3.010  0.604E-03
  3.020  0.588E-03
  3.030  0.572E-03
  3.040  0.558E-03
  3.050  0.542E-03
  3.060  0.528E-03
  3.070  0.512E-03
  3.080  0.498E-03
  3.090  0.484E-03
  3.100  0.470E-03
  3.110  0.456E-03
  3.120  0.442E-03
  3.130  0.428E-03
  3.140  0.416E-03
  3.150  0.402E-03
  3.160  0.390E-03
  3.170  0.376E-03
  3.180  0.364E-03
  3.190  0.352E-03
  3.200  0.340E-03
  3.210  0.328E-03
  3.220  0.316E-03
  3.230  0.305E-03
  3.240  0.294E-03
  3.250  0.282E-03
  3.260  0.272E-03
  3.270  0.262E-03
  3.280  0.250E-03
  3.290  0.240E-03
  3.300  0.230E-03
  3.310  0.220E-03
  3.320  0.210E-03
  3.330  0.200E-03
  3.340  0.191E-03
  3.350  0.182E-03
  3.360  0.173E-03
  3.370  0.164E-03
  3.380  0.156E-03
  3.390  0.147E-03
  3.400  0.139E-03
  3.410  0.131E-03
  3.420  0.123E-03
  3.430  0.115E-03
  3.440  0.107E-03
  3.450  0.100E-03
  3.460  0.927E-04
  3.470  0.856E-04
  3.480  0.787E-04
  3.490  0.720E-04
  3.500  0.654E-04
  3.510  0.591E-04
  3.520  0.529E-04
  3.530  0.468E-04
  3.540  0.410E-04
  3.550  0.354E-04
  3.560  0.299E-04
  3.570  0.246E-04
  3.580  0.194E-04
  3.590  0.145E-04
  3.600  0.968E-05
  3.610  0.507E-05
  3.620  0.629E-06
  3.630 -0.363E-05
  3.640 -0.773E-05
  3.650 -0.117E-04
  3.660 -0.154E-04
  3.670 -0.190E-04
  3.680 -0.224E-04
  3.690 -0.256E-04
  3.700 -0.288E-04
  3.710 -0.316E-04
  3.720 -0.344E-04
  3.730 -0.370E-04
  3.740 -0.394E-04
  3.750 -0.418E-04
  3.760 -0.440E-04
  3.770 -0.460E-04
  3.780 -0.478E-04
  3.790 -0.494E-04
  3.800 -0.510E-04
  3.810 -0.524E-04
  3.820 -0.538E-04
  3.830 -0.548E-04
  3.840 -0.559E-04
  3.850 -0.568E-04
  3.860 -0.576E-04
  3.870 -0.582E-04
  3.880 -0.588E-04
  3.890 -0.592E-04
  3.900 -0.596E-04
  3.910 -0.598E-04
  3.920 -0.600E-04
  3.930 -0.600E-04
  3.940 -0.599E-04
  3.950 -0.598E-04
  3.960 -0.596E-04
  3.970 -0.592E-04
  3.980 -0.588E-04
  3.990 -0.584E-04
  4.000 -0.578E-04
  4.010 -0.573E-04
  4.020 -0.566E-04
  4.030 -0.560E-04
  4.040 -0.552E-04
  4.050 -0.544E-04
  4.060 -0.536E-04
  4.070 -0.528E-04
  4.080 -0.518E-04
  4.090 -0.508E-04
  4.100 -0.498E-04
  4.110 -0.488E-04
  4.120 -0.478E-04
  4.130 -0.468E-04
  4.140 -0.458E-04
  4.150 -0.446E-04
  4.160 -0.436E-04
  4.170 -0.424E-04
  4.180 -0.414E-04
  4.190 -0.402E-04
  4.200 -0.392E-04
  4.210 -0.380E-04
  4.220 -0.368E-04
  4.230 -0.358E-04
  4.240 -0.346E-04
  4.250 -0.336E-04
  4.260 -0.325E-04
  4.270 -0.314E-04
  4.280 -0.304E-04
  4.290 -0.294E-04
  4.300 -0.282E-04
  4.310 -0.272E-04
  4.320 -0.262E-04
  4.330 -0.252E-04
  4.340 -0.244E-04
  4.350 -0.234E-04
  4.360 -0.224E-04
  4.370 -0.216E-04
  4.380 -0.206E-04
  4.390 -0.198E-04
  4.400 -0.190E-04
  4.410 -0.182E-04
  4.420 -0.174E-04
  4.430 -0.166E-04
  4.440 -0.159E-04
  4.450 -0.152E-04
  4.460 -0.145E-04
  4.470 -0.138E-04
  4.480 -0.131E-04
  4.490 -0.125E-04
  4.500 -0.119E-04
  4.510 -0.113E-04
  4.520 -0.108E-04
  4.530 -0.102E-04
  4.540 -0.968E-05
  4.550 -0.918E-05
  4.560 -0.870E-05
  4.570 -0.824E-05
  4.580 -0.780E-05
  4.590 -0.738E-05
  4.600 -0.698E-05
  4.610 -0.658E-05
  4.620 -0.622E-05
  4.630 -0.586E-05
  4.640 -0.552E-05
  4.650 -0.520E-05
  4.660 -0.490E-05
  4.670 -0.462E-05
  4.680 -0.434E-05
  4.690 -0.408E-05
  4.700 -0.382E-05
  4.710 -0.360E-05
  4.720 -0.336E-05
  4.730 -0.316E-05
  4.740 -0.296E-05
  4.750 -0.276E-05
  4.760 -0.258E-05
  4.770 -0.242E-05
  4.780 -0.226E-05
  4.790 -0.212E-05
  4.800 -0.197E-05
  4.810 -0.184E-05
  4.820 -0.171E-05
  4.830 -0.159E-05
  4.840 -0.148E-05
  4.850 -0.138E-05
  4.860 -0.128E-05
  4.870 -0.119E-05
  4.880 -0.111E-05
  4.890 -0.102E-05
  4.900 -0.950E-06
  4.910 -0.880E-06
  4.920 -0.816E-06
  4.930 -0.754E-06
  4.940 -0.698E-06
  4.950 -0.644E-06
  4.960 -0.596E-06
  4.970 -0.550E-06
  4.980 -0.506E-06
  4.990 -0.468E-06
  5.000 -0.430E-06
  5.010 -0.396E-06
  5.020 -0.364E-06
  5.030 -0.336E-06
